Folder: CRYSTAL-scripts/CRYSTAL-IR-RAMAN

Note: README.md
# CRYSTAL-scripts

Some scripts to perform post-treatments after CRYSTAL(17) computations. It includes:
- Bands 
- DOS
- IR-RAMAN spectra
- Phonon dispersion
- dielectric constant

File: IR.log-IR.csv
E(cm-1),I
0.01,6.18473e-182
2.47701,1.3866e-177
4.94402,2.75244e-173
7.41103,4.8375e-169
9.87804,7.52768e-165
12.3451,1.03714e-160
14.8121,1.26517e-156
17.2791,1.36647e-152
19.7461,1.30672e-148
22.2131,1.10638e-144
24.6801,8.29401e-141
27.1471,5.50502e-137
29.6141,3.23512e-133
32.0811,1.68329e-129
34.5482,7.75465e-126
37.0152,3.16302e-122
39.4822,1.1423e-118
41.9492,3.65252e-115
44.4162,1.03405e-111
46.8832,2.59196e-108
49.3502,5.75244e-105
51.8172,1.13034e-101
54.2842,1.96656e-98
56.7512,3.02927e-95
59.2183,4.13149e-92
61.6853,4.98898e-89
64.1523,5.334e-86
66.6193,5.0493e-83
69.0863,4.232e-80
71.5533,3.14048e-77
74.0203,2.0634e-74
76.4873,1.20035e-71
78.9543,6.18254e-69
81.4214,2.81944e-66
83.8884,1.1384e-63
86.3554,4.06973e-61
88.8224,1.28816e-58
91.2894,3.61005e-56
93.7564,8.95761e-54
96.2234,1.96792e-51
98.6904,3.82789e-49
101.157,6.59245e-47
103.624,1.00524e-44
106.091,1.35716e-42
108.558,1.62229e-40
111.025,1.71697e-38
113.492,1.60892e-36
115.96,1.33487e-34
118.427,9.80581e-33
120.894,6.37768e-31
123.361,3.67265e-29
125.828,1.87254e-27
128.295,8.45318e-26
130.762,3.37867e-24
133.229,1.19566e-22
135.696,3.74633e-21
138.163,1.0393e-19
140.63,2.55277e-18
143.097,5.55161e-17
145.564,1.06896e-15
148.031,1.8224e-14
150.498,2.75081e-13
152.965,3.67632e-12
155.432,4.35014e-11
157.899,4.55753e-10
160.366,4.22758e-09
162.833,3.47209e-08
165.3,2.5248e-07
167.767,1.62554e-06
170.234,9.2663e-06
172.701,4.67683e-05
175.168,0.000208993
177.635,0.000826895
180.102,0.00289671
182.569,0.00898452
185.036,0.024673
187.503,0.0599909
189.97,0.129147
192.437,0.246162
194.904,0.415427
197.371,0.620732
199.838,0.821201
202.305,0.961904
204.772,0.997586
207.239,0.916021
209.706,0.744726
212.173,0.536074
214.64,0.341656
217.107,0.192792
219.574,0.0963223
222.041,0.0426089
224.508,0.0166882
226.975,0.00578705
229.442,0.00177681
231.909,0.000483014
234.376,0.000116256
236.843,2.47747e-05
239.31,4.67451e-06
241.777,7.80911e-07
244.244,1.15506e-07
246.711,1.51266e-08
249.178,1.75394e-09
251.645,1.80064e-10
254.112,1.63672e-11
256.579,1.31723e-12
259.046,9.41221e-14
261.513,1.05133e-14
263.98,7.14199e-14
266.447,9.74486e-13
268.914,1.18269e-11
271.381,1.27089e-10
273.848,1.20916e-09
276.315,1.01858e-08
278.782,7.59699e-08
281.249,5.01679e-07
283.716,2.93323e-06
286.183,1.51846e-05
288.65,6.95979e-05
291.117,0.00028244
293.584,0.00101483
296.051,0.00322846
298.518,0.00909356
300.985,0.0226782
303.452,0.0500751
305.919,0.0978971
308.386,0.169455
310.853,0.259702
313.32,0.352398
315.787,0.423378
318.254,0.450359
320.721,0.424156
323.188,0.353695
325.655,0.261137
328.122,0.170705
330.589,0.0988003
333.056,0.05063
335.523,0.0229717
337.99,0.00922817
340.457,0.00328227
342.924,0.00103364
345.392,0.000288204
347.859,7.11489e-05
350.326,1.55515e-05
352.793,3.00963e-06
355.26,5.15695e-07
357.727,7.8268e-08
360.194,1.08402e-08
362.661,4.24882e-09
365.128,2.41651e-08
367.595,1.70539e-07
370.062,1.07129e-06
372.529,5.95872e-06
374.996,2.93453e-05
377.463,0.000127956
379.93,0.000493988
382.397,0.00168854
384.864,0.00511024
387.331,0.0136933
389.798,0.0324871
392.265,0.0682419
394.732,0.126919
397.199,0.208997
399.666,0.304712
402.133,0.393346
404.6,0.449569
407.067,0.454941
409.534,0.407615
412.001,0.323356
414.468,0.227117
416.935,0.141239
419.402,0.0777667
421.869,0.0379115
424.336,0.0163638
426.803,0.00625366
429.27,0.00211602
431.737,0.000633933
434.204,0.000168152
436.671,3.9491e-05
439.138,8.21166e-06
441.605,1.51182e-06
444.072,2.46436e-07
446.539,3.55669e-08
449.006,4.5449e-09
451.473,5.14207e-10
453.94,5.15097e-11
456.407,4.56853e-12
458.874,3.58757e-13
461.341,2.49437e-14
463.808,1.53552e-15
466.275,8.36931e-17
468.742,4.03886e-18
471.209,1.7257e-19
473.676,6.52841e-21
476.143,2.18669e-22
478.61,6.48487e-24
481.077,1.70276e-25
483.544,3.9586e-27
486.011,8.14828e-29
488.478,1.485e-30
490.945,2.39621e-32
493.412,3.4234e-34
495.879,4.33041e-36
498.346,4.84993e-38
500.813,4.80926e-40
503.28,4.22239e-42
505.747,3.28227e-44
508.214,2.25906e-46
510.681,1.37663e-48
513.148,7.42748e-51
515.615,3.54816e-53
518.082,1.50073e-55
520.549,5.62e-58
523.016,1.86341e-60
525.483,5.47035e-63
527.95,1.42187e-65
530.417,3.2722e-68
532.884,6.6674e-71
535.351,1.20285e-73
537.818,1.92132e-76
540.285,2.71723e-79
542.752,3.40243e-82
545.219,3.77214e-85
547.686,3.70274e-88
550.153,3.21807e-91
552.62,2.4763e-94
555.087,1.68713e-97
557.554,1.01772e-100
560.021,5.43561e-104
562.488,2.57041e-107
564.955,1.0762e-110
567.422,3.98952e-114
569.889,1.30943e-117
572.356,3.80526e-121
574.824,9.79085e-125
577.291,2.23045e-128
579.758,4.49886e-132
582.225,8.03431e-136
584.692,1.27037e-139
587.159,1.77848e-143
589.626,2.20447e-147
592.093,2.41933e-151
594.56,2.35084e-155
597.027,2.0225e-159
599.494,1.5406e-163
601.961,1.03903e-167
604.428,6.20441e-172
606.895,3.28028e-176
609.362,1.53553e-180
611.829,6.36415e-185
614.296,2.33539e-189
616.763,7.5878e-194
619.23,2.18277e-198
621.697,5.55952e-203
624.164,1.25373e-207
626.631,2.50325e-212
629.098,4.4253e-217
631.565,6.92655e-222
634.032,9.59905e-227
636.499,1.17781e-231
638.966,1.27956e-236
641.433,1.23078e-241
643.9,1.04818e-246
646.367,7.90369e-252
648.834,5.27667e-257
651.301,3.11908e-262
653.768,1.63241e-267
656.235,7.56428e-273
658.702,3.10344e-278
661.169,1.12734e-283
663.636,3.6258e-289
666.103,1.0325e-294
668.57,2.60321e-300
671.037,5.81122e-306
673.504,1.14858e-311
675.971,2.00998e-317
678.438,3e-323
680.905,0.0
683.372,0.0
685.839,0.0
688.306,0.0
690.773,0.0
693.24,0.0
695.707,0.0
698.174,0.0
700.641,0.0
703.108,0.0
705.575,0.0
708.042,0.0
710.509,0.0
712.976,0.0
715.443,0.0
717.91,0.0
720.377,0.0
722.844,0.0
725.311,0.0
725.456,0.0

File: IR.log.csv
E(cm-1),I
0.01,6.18456e-182
3.41065,5.95166e-176
6.81129,4.54486e-170
10.2119,2.75394e-164
13.6126,1.32417e-158
17.0132,5.05224e-153
20.4139,1.5296e-147
23.8145,3.67472e-142
27.2152,7.00527e-137
30.6158,1.05969e-131
34.0165,1.27199e-126
37.4171,1.21155e-121
40.8178,9.157e-117
44.2184,5.49184e-112
47.619,2.61358e-107
51.0197,9.86974e-103
54.4203,2.95753e-98
57.821,7.03243e-94
61.2216,1.32689e-89
64.6223,1.98663e-85
68.0229,2.36022e-81
71.4236,2.22505e-77
74.8242,1.66449e-73
78.2249,9.88042e-70
81.6255,4.65396e-66
85.0262,1.73949e-62
88.4268,5.15912e-59
91.8274,1.21417e-55
95.2281,2.26746e-52
98.6287,3.3601e-49
102.029,3.95108e-46
105.43,3.68667e-43
108.831,2.72963e-40
112.231,1.60372e-37
115.632,7.47661e-35
119.033,2.76588e-32
122.433,8.11926e-30
125.834,1.89126e-27
129.235,3.49575e-25
132.635,5.12721e-23
136.036,5.96726e-21
139.436,5.5109e-19
142.837,4.03852e-17
146.238,2.34842e-15
149.638,1.08363e-13
153.039,3.96771e-12
156.44,1.1528e-10
159.84,2.65777e-09
163.241,4.86222e-08
166.642,7.05839e-07
170.042,8.13072e-06
173.443,7.432e-05
176.844,0.000539058
180.244,0.00310254
183.645,0.0141695
187.046,0.0513501
190.446,0.147667
193.847,0.336959
197.247,0.610133
200.648,0.876647
204.049,0.999489
207.449,0.904241
210.85,0.649147
214.251,0.36979
217.651,0.167155
221.052,0.0599567
224.453,0.0170651
227.853,0.00385419
231.254,0.000690732
234.655,9.82288e-05
238.055,1.10846e-05
241.456,9.92561e-07
244.857,7.05254e-08
248.257,3.97637e-09
251.658,1.77902e-10
255.058,6.31581e-12
258.459,1.78052e-13
261.86,1.07743e-14
265.26,2.80881e-13
268.661,9.20571e-12
272.062,2.39471e-10
275.462,4.94314e-09
278.863,8.09665e-08
282.264,1.05235e-06
285.664,1.08535e-05
289.065,8.88239e-05
292.466,0.000576825
295.866,0.00297243
299.267,0.0121543
302.668,0.039437
306.068,0.101538
309.469,0.207448
312.869,0.336311
316.27,0.432639
319.671,0.441635
323.071,0.357729
326.472,0.229931
329.873,0.117272
333.273,0.0474617
336.674,0.0152421
340.075,0.0038842
343.475,0.000785434
346.876,0.000126029
350.277,1.60467e-05
353.677,1.62126e-06
357.078,1.29996e-07
360.478,8.69885e-09
363.879,8.92911e-09
367.28,1.33716e-07
370.68,1.66646e-06
374.081,1.64821e-05
377.482,0.000129356
380.882,0.000805583
384.283,0.00398096
387.684,0.0156106
391.084,0.0485739
394.485,0.119933
397.886,0.234979
401.286,0.365318
404.687,0.450679
408.088,0.44118
411.488,0.342702
414.889,0.211238
418.289,0.103319
421.69,0.0400995
425.091,0.0123496
428.491,0.00301799
431.892,0.000585244
435.293,9.00553e-05
438.693,1.0996e-05
442.094,1.0654e-06
445.495,8.19111e-08
448.895,4.9972e-09
452.296,2.41915e-10
455.697,9.29295e-12
459.097,2.83267e-13
462.498,6.85159e-15
465.899,1.31504e-16
469.299,2.00282e-18
472.7,2.42045e-20
476.1,2.32115e-22
479.501,1.7663e-24
482.902,1.06654e-26
486.302,5.11027e-29
489.703,1.94296e-31
493.104,5.86186e-34
496.504,1.40333e-36
499.905,2.66587e-39
503.306,4.01855e-42
506.706,4.80677e-45
510.107,4.56237e-48
513.508,3.43621e-51
516.908,2.05363e-54
520.309,9.7391e-58
523.71,3.66494e-61
527.11,1.09438e-64
530.511,2.59313e-68
533.911,4.87563e-72
537.312,7.27431e-76
540.713,8.61202e-80
544.113,8.09043e-84
547.514,6.03102e-88
550.915,3.56749e-92
554.315,1.67451e-96
557.716,6.23687e-101
561.117,1.84331e-105
564.517,4.32297e-110
567.918,8.04487e-115
571.319,1.18798e-119
574.719,1.39204e-124
578.12,1.29434e-129
581.52,9.54985e-135
584.921,5.59112e-140
588.322,2.59749e-145
591.722,9.57549e-151
595.123,2.80105e-156
598.524,6.50182e-162
601.924,1.19757e-167
605.325,1.75034e-173
608.726,2.02999e-179
612.126,1.86818e-185
615.527,1.36426e-191
618.928,7.90549e-198
622.328,3.63507e-204
625.729,1.32633e-210
629.13,3.84008e-217
632.53,8.82233e-224
635.931,1.60835e-230
639.331,2.32664e-237
642.732,2.67073e-244
646.133,2.43268e-251
649.533,1.7583e-258
652.934,1.00845e-265
656.335,4.58952e-273
659.735,1.65743e-280
663.136,4.74957e-288
666.537,1.08001e-295
669.937,1.94873e-303
673.338,2.79017e-311
676.739,3.17e-319
680.139,0.0
683.54,0.0
686.941,0.0
690.341,0.0
693.742,0.0
697.142,0.0
700.543,0.0
703.944,0.0
707.344,0.0
710.745,0.0
714.146,0.0
717.546,0.0
720.947,0.0
724.348,0.0
727.748,0.0
731.149,0.0
734.55,0.0
737.95,0.0
741.351,0.0
744.752,0.0
748.152,0.0
751.553,0.0
754.953,0.0
758.354,0.0
761.755,0.0
765.155,0.0
768.556,0.0
771.957,0.0
775.357,0.0
778.758,0.0
782.159,0.0
785.559,0.0
788.96,0.0
792.361,0.0
795.761,0.0
799.162,0.0
802.562,0.0
805.963,0.0
809.364,0.0
812.764,0.0
816.165,0.0
819.566,0.0
822.966,0.0
826.367,0.0
829.768,0.0
833.168,0.0
836.569,0.0
839.97,0.0
843.37,0.0
846.771,0.0
850.172,0.0
853.572,0.0
856.973,0.0
860.373,0.0
863.774,0.0
867.175,0.0
870.575,0.0
873.976,0.0
877.377,0.0
880.777,0.0
884.178,0.0
887.579,0.0
890.979,0.0
894.38,0.0
897.781,0.0
901.181,0.0
904.582,0.0
907.983,0.0
911.383,0.0
914.784,0.0
918.184,0.0
921.585,0.0
924.986,0.0
928.386,0.0
931.787,0.0
935.188,0.0
938.588,0.0
941.989,0.0
945.39,0.0
948.79,0.0
952.191,0.0
955.592,0.0
958.992,0.0
962.393,0.0
965.794,0.0
969.194,0.0
972.595,0.0
975.995,0.0
979.396,0.0
982.797,0.0
986.197,0.0
989.598,0.0
992.999,0.0
996.399,0.0
999.8,0.0
1000.0,0.0

File: log.PBE446328-IR.csv
E(cm-1),I
0.01,6.18221e-182
2.47701,1.38604e-177
4.94402,2.75135e-173
7.41103,4.83562e-169
9.87804,7.5248e-165
12.3451,1.03675e-160
14.8121,1.2647e-156
17.2791,1.36597e-152
19.7461,1.30626e-148
22.2131,1.106e-144
24.6801,8.29115e-141
27.1471,5.50316e-137
29.6141,3.23404e-133
32.0811,1.68274e-129
34.5482,7.75216e-126
37.0152,3.16203e-122
39.4822,1.14195e-118
41.9492,3.65142e-115
44.4162,1.03375e-111
46.8832,2.59121e-108
49.3502,5.7508e-105
51.8172,1.13003e-101
54.2842,1.96602e-98
56.7513,3.02846e-95
59.2183,4.13041e-92
61.6853,4.9877e-89
64.1523,5.33267e-86
66.6193,5.04806e-83
69.0863,4.23098e-80
71.5533,3.13975e-77
74.0203,2.06293e-74
76.4873,1.20008e-71
78.9544,6.18119e-69
81.4214,2.81884e-66
83.8884,1.13817e-63
86.3554,4.06891e-61
88.8224,1.28791e-58
91.2894,3.60936e-56
93.7564,8.95594e-54
96.2234,1.96756e-51
98.6904,3.82721e-49
101.157,6.59132e-47
103.624,1.00508e-44
106.091,1.35694e-42
108.558,1.62204e-40
111.026,1.71671e-38
113.493,1.60868e-36
115.96,1.33468e-34
118.427,9.80446e-33
120.894,6.37683e-31
123.361,3.67217e-29
125.828,1.87231e-27
128.295,8.45217e-26
130.762,3.37828e-24
133.229,1.19553e-22
135.696,3.74593e-21
138.163,1.03919e-19
140.63,2.55252e-18
143.097,5.55109e-17
145.564,1.06887e-15
148.031,1.82224e-14
150.498,2.75058e-13
152.965,3.67604e-12
155.432,4.34982e-11
157.899,4.55721e-10
160.366,4.22731e-09
162.833,3.47188e-08
165.3,2.52465e-07
167.767,1.62546e-06
170.234,9.26585e-06
172.701,4.67662e-05
175.168,0.000208985
177.635,0.000826864
180.102,0.00289661
182.569,0.00898425
185.036,0.0246723
187.503,0.0599895
189.97,0.129145
192.437,0.246158
194.904,0.415422
197.371,0.620726
199.838,0.821196
202.305,0.961901
204.772,0.997586
207.239,0.916024
209.706,0.744731
212.173,0.536079
214.64,0.34166
217.107,0.192795
219.574,0.0963242
222.041,0.0426099
224.508,0.0166887
226.975,0.00578721
229.442,0.00177686
231.909,0.00048303
234.376,0.00011626
236.843,2.47756e-05
239.31,4.67471e-06
241.777,7.80946e-07
244.244,1.15511e-07
246.711,1.51274e-08
249.178,1.75404e-09
251.645,1.80074e-10
254.112,1.63681e-11
256.579,1.31731e-12
259.046,9.4128e-14
261.513,1.05139e-14
263.98,7.14233e-14
266.447,9.74531e-13
268.914,1.18274e-11
271.381,1.27094e-10
273.848,1.20921e-09
276.315,1.01862e-08
278.782,7.59727e-08
281.249,5.01696e-07
283.716,2.93332e-06
286.183,1.5185e-05
288.65,6.95999e-05
291.117,0.000282447
293.584,0.00101485
296.051,0.00322853
298.518,0.00909374
300.985,0.0226786
303.452,0.0500758
305.919,0.0978983
308.386,0.169457
310.853,0.259704
313.32,0.3524
315.787,0.423379
318.254,0.450359
320.721,0.424155
323.188,0.353693
325.655,0.261135
328.122,0.170703
330.589,0.098799
333.057,0.0506291
335.524,0.0229713
337.991,0.00922796
340.458,0.00328219
342.925,0.00103361
345.392,0.000288195
347.859,7.11465e-05
350.326,1.55509e-05
352.793,3.00951e-06
355.26,5.15673e-07
357.727,7.82644e-08
360.194,1.08396e-08
362.661,4.24865e-09
365.128,2.41644e-08
367.595,1.70534e-07
370.062,1.07126e-06
372.529,5.95857e-06
374.996,2.93446e-05
377.463,0.000127953
379.93,0.000493979
382.397,0.00168851
384.864,0.00511016
387.331,0.0136931
389.798,0.0324867
392.265,0.0682412
394.732,0.126918
397.199,0.208996
399.666,0.30471
402.133,0.393345
404.6,0.449569
407.067,0.454941
409.534,0.407616
412.001,0.323357
414.468,0.227118
416.935,0.141239
419.402,0.0777674
421.869,0.0379119
424.336,0.016364
426.803,0.00625374
429.27,0.00211605
431.737,0.000633943
434.204,0.000168155
436.671,3.94917e-05
439.138,8.2118e-06
441.605,1.51185e-06
444.072,2.46441e-07
446.539,3.55676e-08
449.006,4.545e-09
451.473,5.14219e-10
453.94,5.15109e-11
456.407,4.56864e-12
458.874,3.58766e-13
461.341,2.49443e-14
463.808,1.53557e-15
466.275,8.36954e-17
468.742,4.03898e-18
471.209,1.72575e-19
473.676,6.5286e-21
476.143,2.18675e-22
478.61,6.48507e-24
481.077,1.70281e-25
483.544,3.95872e-27
486.011,8.14853e-29
488.478,1.48505e-30
490.945,2.39628e-32
493.412,3.42351e-34
495.879,4.33055e-36
498.346,4.85009e-38
500.813,4.80942e-40
503.28,4.22253e-42
505.747,3.28238e-44
508.214,2.25913e-46
510.681,1.37667e-48
513.148,7.42772e-51
515.615,3.54827e-53
518.082,1.50077e-55
520.549,5.62018e-58
523.016,1.86346e-60
525.483,5.47052e-63
527.95,1.42191e-65
530.417,3.2723e-68
532.884,6.6676e-71
535.351,1.20288e-73
537.818,1.92138e-76
540.285,2.71731e-79
542.752,3.40252e-82
545.219,3.77224e-85
547.686,3.70284e-88
550.153,3.21815e-91
552.621,2.47637e-94
555.088,1.68717e-97
557.555,1.01775e-100
560.022,5.43573e-104
562.489,2.57047e-107
564.956,1.07622e-110
567.423,3.9896e-114
569.89,1.30946e-117
572.357,3.80532e-121
574.824,9.79101e-125
577.291,2.23049e-128
579.758,4.49893e-132
582.225,8.03441e-136
584.692,1.27039e-139
587.159,1.7785e-143
589.626,2.20449e-147
592.093,2.41935e-151
594.56,2.35086e-155
597.027,2.02251e-159
599.494,1.5406e-163
601.961,1.03903e-167
604.428,6.20441e-172
606.895,3.28027e-176
609.362,1.53552e-180
611.829,6.36412e-185
614.296,2.33538e-189
616.763,7.58773e-194
619.23,2.18275e-198
621.697,5.55945e-203
624.164,1.25371e-207
626.631,2.50321e-212
629.098,4.42522e-217
631.565,6.92641e-222
634.032,9.59883e-227
636.499,1.17778e-231
638.966,1.27952e-236
641.433,1.23074e-241
643.9,1.04815e-246
646.367,7.90343e-252
648.834,5.27648e-257
651.301,3.11896e-262
653.768,1.63234e-267
656.235,7.56395e-273
658.702,3.1033e-278
661.169,1.12729e-283
663.636,3.62561e-289
666.103,1.03244e-294
668.57,2.60307e-300
671.037,5.81088e-306
673.504,1.14851e-311
675.971,2.00985e-317
678.438,3e-323
680.905,0.0
683.372,0.0
685.839,0.0
688.306,0.0
690.773,0.0
693.24,0.0
695.707,0.0
698.174,0.0
700.641,0.0
703.108,0.0
705.575,0.0
708.042,0.0
710.509,0.0
712.976,0.0
715.443,0.0
717.91,0.0
720.377,0.0
722.844,0.0
725.311,0.0
725.4564,0.0

File: log.PBE446328-RAMAN.csv
E(cm-1),I
0.01,3.32963e-54
2.47701,7.38268e-52
4.94402,1.44934e-49
7.41103,2.51919e-47
9.87804,3.87693e-45
12.3451,5.28266e-43
14.8121,6.37313e-41
17.2791,6.80754e-39
19.7461,6.43819e-37
22.2131,5.39105e-35
24.6801,3.99687e-33
27.1471,2.62363e-31
29.6141,1.52483e-29
32.0811,7.84652e-28
34.5482,3.57494e-26
37.0152,1.44211e-24
39.4822,5.15065e-23
41.9492,1.62878e-21
44.4162,4.56038e-20
46.8832,1.13051e-18
49.3502,2.48134e-17
51.8172,4.82206e-16
54.2842,8.29691e-15
56.7513,1.26397e-13
59.2183,1.70487e-12
61.6853,2.03603e-11
64.1523,2.15285e-10
66.6193,2.01549e-09
69.0863,1.67063e-08
71.5533,1.22608e-07
74.0203,7.967e-07
76.4873,4.58359e-06
78.9544,2.33482e-05
81.4214,0.000105302
83.8884,0.000420492
86.3554,0.00148667
88.8224,0.00465381
91.2894,0.0128985
93.7564,0.0316522
96.2234,0.0687712
98.6904,0.132296
101.157,0.225331
103.624,0.339808
106.091,0.453713
108.558,0.536372
111.026,0.561419
113.493,0.520289
115.96,0.426912
118.427,0.310148
120.894,0.199497
123.361,0.113616
125.828,0.05729
128.295,0.0255773
130.762,0.0101104
133.229,0.00353848
135.696,0.00109648
138.163,0.000300834
140.63,7.30876e-05
143.097,1.5772e-05
145.564,3.24776e-06
148.031,1.55473e-06
150.498,3.90772e-06
152.965,1.23935e-05
155.432,3.54301e-05
157.899,8.97444e-05
160.366,0.000201276
162.833,0.000399681
165.3,0.000702704
167.767,0.00109387
170.234,0.00150764
172.701,0.00183978
175.168,0.00198779
177.635,0.00190156
180.102,0.0016106
182.569,0.00120781
185.036,0.000801954
187.503,0.00047145
189.97,0.000245391
192.437,0.000113088
194.904,4.61437e-05
197.371,1.66703e-05
199.838,5.33227e-06
202.305,1.51014e-06
204.772,3.78668e-07
207.239,8.40689e-08
209.706,1.65253e-08
212.173,2.87607e-09
214.64,4.43187e-10
217.107,6.04658e-11
219.574,7.30414e-12
222.041,7.81206e-13
224.508,7.39772e-14
226.975,6.2025e-15
229.442,4.60439e-16
231.909,3.02631e-17
234.376,1.76113e-18
236.843,9.07416e-20
239.31,4.13959e-21
241.777,1.67203e-22
244.244,5.97955e-24
246.711,1.89334e-25
249.178,5.30793e-27
251.645,1.31752e-28
254.112,2.89553e-30
256.579,5.63423e-32
259.046,9.70681e-34
261.513,1.48066e-35
263.98,1.99973e-37
266.447,2.39124e-39
268.914,2.53169e-41
271.381,2.3732e-43
273.848,1.96969e-45
276.315,1.61556e-47
278.782,2.71631e-46
281.249,3.88251e-44
283.716,4.91511e-42
286.183,5.50922e-40
288.65,5.46744e-38
291.117,4.80412e-36
293.584,3.73749e-34
296.051,2.57444e-32
298.518,1.57008e-30
300.985,8.47808e-29
303.452,4.05331e-27
305.919,1.71576e-25
308.386,6.43047e-24
310.853,2.13385e-22
313.32,6.26934e-21
315.787,1.63086e-19
318.254,3.75618e-18
320.721,7.65972e-17
323.188,1.38298e-15
325.655,2.21083e-14
328.122,3.12919e-13
330.589,3.92144e-12
333.057,4.35105e-11
335.524,4.27444e-10
337.991,3.71793e-09
340.458,2.86325e-08
342.925,1.95234e-07
345.392,1.17865e-06
347.859,6.30019e-06
350.326,2.98166e-05
352.793,0.000124939
355.26,0.000463527
357.727,0.00152261
360.194,0.00442831
362.661,0.0114031
365.128,0.0259984
367.595,0.0524814
370.062,0.0937996
372.529,0.148434
374.996,0.20797
377.463,0.257992
379.93,0.283365
382.397,0.275565
384.864,0.237268
387.331,0.180879
389.798,0.122089
392.265,0.0729624
394.732,0.0386063
397.199,0.0180865
399.666,0.00750217
402.133,0.00275522
404.6,0.000895904
407.067,0.000257931
409.534,6.57478e-05
412.001,1.48387e-05
414.468,2.96515e-06
416.935,5.24608e-07
419.402,8.21786e-08
421.869,1.13977e-08
424.336,1.39964e-09
426.803,1.52177e-10
429.27,1.46494e-11
431.737,1.24959e-12
434.204,1.09429e-13
436.671,2.14465e-13
439.138,2.52396e-12
441.605,2.70868e-11
444.072,2.57414e-10
446.539,2.16593e-09
449.006,1.6136e-08
451.473,1.06435e-07
453.94,6.21599e-07
456.407,3.21425e-06
458.874,1.47163e-05
461.341,5.96594e-05
463.808,0.000214163
466.275,0.000680842
468.742,0.00191725
471.209,0.00478451
473.676,0.0105901
476.143,0.0208267
478.61,0.0365133
481.077,0.0574321
483.544,0.0819864
486.011,0.108281
488.478,0.135965
490.945,0.16705
493.412,0.204
495.879,0.245602
498.346,0.283974
500.813,0.306334
503.28,0.301566
505.747,0.267189
508.214,0.211402
510.681,0.148745
513.148,0.0928704
515.615,0.0513972
518.082,0.025199
520.549,0.0109418
523.016,0.00420719
525.483,0.0014324
527.95,0.000431805
530.417,0.000115254
532.884,2.72373e-05
535.351,5.69917e-06
537.818,1.05583e-06
540.285,1.73188e-07
542.752,2.51522e-08
545.219,3.23422e-09
547.686,3.68223e-10
550.153,3.72581e-11
552.621,5.26181e-12
555.088,2.40364e-11
557.555,2.56767e-10
560.022,2.45494e-09
562.489,2.0783e-08
564.956,1.55781e-07
567.423,1.03384e-06
569.89,6.0748e-06
572.357,3.16043e-05
574.824,0.000145578
577.291,0.000593721
579.758,0.00214391
582.225,0.00685434
584.692,0.0194027
587.159,0.0486289
589.626,0.10791
592.093,0.212016
594.56,0.368816
597.027,0.568052
599.494,0.774645
601.961,0.935306
604.428,0.999864
606.895,0.946379
609.362,0.793095
611.829,0.588467
614.296,0.386594
616.763,0.224866
619.23,0.115806
621.697,0.0528047
624.164,0.0213183
626.631,0.00762021
629.098,0.00241167
631.565,0.000675782
634.032,0.000167661
636.499,3.68292e-05
638.966,7.16291e-06
641.433,1.23346e-06
643.9,1.88059e-07
646.367,2.53864e-08
648.834,3.03419e-09
651.301,3.21087e-10
653.768,3.00842e-11
656.235,2.49569e-12
658.702,1.83307e-13
661.169,1.19208e-14
663.636,6.86383e-16
666.103,3.49917e-17
668.57,1.57943e-18
671.037,6.31204e-20
673.504,2.23346e-21
675.971,6.99715e-23
678.438,1.94089e-24
680.905,4.7667e-26
683.372,1.0365e-27
685.839,1.99554e-29
688.306,3.40162e-31
690.773,5.13391e-33
693.24,6.86036e-35
695.707,8.11675e-37
698.174,8.50264e-39
700.641,7.88609e-41
703.108,6.47599e-43
705.575,4.70855e-45
708.042,3.03113e-47
710.509,1.72766e-49
712.976,8.71862e-52
715.443,3.8956e-54
717.91,1.54112e-56
720.377,5.39805e-59
722.844,1.67407e-61
725.311,4.59668e-64
725.4564,3.23692e-64