Folder: CRYSTAL-scripts/CRYSTAL-IR-RAMAN (part 2)

File: log.PBE0446657-IR.csv
E(cm-1),I
0.01,6.72073e-237
2.60421,1.12932e-231
5.19842,1.65867e-226
7.79263,2.12936e-221
10.3868,2.38937e-216
12.981,2.34348e-211
15.5753,2.00902e-206
18.1695,1.5054e-201
20.7637,9.8597e-197
23.3579,5.64443e-192
25.9521,2.82437e-187
28.5463,1.23529e-182
31.1405,4.72235e-178
33.7347,1.57795e-173
36.3289,4.60865e-169
38.9231,1.17652e-164
41.5174,2.62523e-160
44.1116,5.12013e-156
46.7058,8.7285e-152
49.3,1.3006e-147
51.8942,1.69391e-143
54.4884,1.92834e-139
57.0826,1.91876e-135
59.6768,1.66879e-131
62.271,1.26861e-127
64.8652,8.42944e-124
67.4594,4.8957e-120
70.0537,2.48528e-116
72.6479,1.10276e-112
75.2421,4.2769e-109
77.8363,1.44985e-105
80.4305,4.29598e-102
83.0247,1.11262e-98
85.6189,2.51868e-95
88.2131,4.98363e-92
90.8073,8.61913e-89
93.4015,1.30294e-85
95.9957,1.7216e-82
98.59,1.98831e-79
101.184,2.00715e-76
103.778,1.771e-73
106.373,1.36585e-70
108.967,9.20734e-68
111.561,5.42511e-65
114.155,2.79401e-62
116.749,1.25774e-59
119.344,4.9488e-57
121.938,1.70197e-54
124.532,5.11623e-52
127.126,1.34429e-49
129.72,3.0873e-47
132.315,6.19742e-45
134.909,1.08739e-42
137.503,1.66766e-40
140.097,2.23549e-38
142.692,2.61929e-36
145.286,2.68249e-34
147.88,2.40125e-32
150.474,1.8788e-30
153.068,1.2849e-28
155.663,7.68074e-27
158.257,4.01311e-25
160.851,1.83275e-23
163.445,7.31595e-22
166.039,2.5526e-20
168.634,7.78465e-19
171.228,2.0751e-17
173.822,4.83488e-16
176.416,9.84637e-15
179.01,1.75271e-13
181.605,2.72703e-12
184.199,3.70864e-11
186.793,4.40843e-10
189.387,4.58034e-09
191.981,4.15964e-08
194.576,3.30186e-07
197.17,2.2909e-06
199.764,1.38931e-05
202.358,7.36435e-05
204.953,0.000341205
207.547,0.00138179
210.141,0.00489117
212.735,0.0151331
215.329,0.0409249
217.924,0.0967369
220.518,0.199867
223.112,0.36094
225.706,0.569736
228.3,0.786062
230.895,0.947948
233.489,0.99921
236.083,0.920606
238.677,0.741371
241.271,0.521845
243.866,0.321065
246.46,0.172659
249.054,0.0811575
251.648,0.0333437
254.243,0.0119741
256.837,0.00375852
259.431,0.00103118
262.025,0.000247286
264.619,5.18331e-05
267.214,9.49641e-06
269.808,1.52075e-06
272.402,2.12862e-07
274.996,2.60427e-08
277.59,2.78494e-09
280.185,2.60311e-10
282.779,2.12673e-11
285.373,1.51872e-12
287.967,9.47955e-14
290.561,5.17181e-15
293.156,2.46745e-16
295.75,1.35687e-17
298.344,8.04438e-17
300.938,1.70386e-15
303.532,3.16914e-14
306.127,5.15225e-13
308.721,7.32144e-12
311.315,9.0937e-11
313.909,9.87255e-10
316.504,9.36834e-09
319.098,7.77036e-08
321.692,5.63331e-07
324.286,3.5697e-06
326.88,1.97717e-05
329.475,9.57194e-05
332.069,0.000405043
334.663,0.00149812
337.257,0.00484326
339.851,0.0136859
342.446,0.0338028
345.04,0.0729755
347.634,0.137704
350.228,0.227122
352.822,0.32743
355.417,0.412593
358.011,0.454432
360.605,0.437483
363.199,0.368128
365.794,0.270757
368.388,0.174063
370.982,0.0978086
373.576,0.0480389
376.17,0.020623
378.765,0.00773854
381.359,0.0025383
383.953,0.000729022
386.547,0.000190611
389.141,8.25726e-05
391.736,0.000199378
394.33,0.00075484
396.924,0.0025889
399.518,0.0077731
402.112,0.0204008
404.707,0.0468001
407.301,0.0938404
409.895,0.164467
412.489,0.251948
415.084,0.337356
417.678,0.394831
420.272,0.403904
422.866,0.361151
425.46,0.282258
428.055,0.192817
430.649,0.115131
433.243,0.0600872
435.837,0.0274105
438.431,0.0109294
441.026,0.00380908
443.62,0.00116035
446.214,0.000308959
448.808,7.1905e-05
451.402,1.46272e-05
453.997,2.60081e-06
456.591,4.04204e-07
459.185,5.49082e-08
461.779,6.51956e-09
464.373,6.76619e-10
466.968,6.13782e-11
469.562,4.86664e-12
472.156,3.37279e-13
474.75,2.04312e-14
477.345,1.08179e-15
479.939,5.00651e-17
482.533,2.02523e-18
485.127,7.16071e-20
487.721,2.21301e-21
490.316,5.978e-23
492.91,1.41147e-24
495.504,2.91296e-26
498.098,5.2546e-28
500.692,8.28496e-30
503.287,1.14179e-31
505.881,1.37539e-33
508.475,1.44814e-35
511.069,1.33272e-37
513.663,1.07204e-39
516.258,7.53757e-42
518.852,4.63228e-44
521.446,2.4883e-46
524.04,1.1683e-48
526.635,4.79459e-51
529.229,1.71986e-53
531.823,5.39237e-56
534.417,1.47778e-58
537.011,3.53986e-61
539.606,7.4115e-64
542.2,1.35635e-66
544.794,2.1696e-69
547.388,3.03343e-72
549.982,3.70709e-75
552.577,3.95983e-78
555.171,3.69713e-81
557.765,3.01715e-84
560.359,2.15216e-87
562.953,1.34183e-90
565.548,7.31245e-94
568.142,3.48316e-97
570.736,1.45021e-100
573.33,5.27752e-104
575.924,1.67871e-107
578.519,4.66729e-111
581.113,1.13423e-114
583.707,2.40923e-118
586.301,4.47303e-122
588.896,7.25889e-126
591.49,1.02963e-129
594.084,1.27656e-133
596.678,1.38338e-137
599.272,1.31036e-141
601.867,1.08488e-145
604.461,7.85086e-150
607.055,4.9659e-154
609.649,2.74551e-158
612.243,1.32676e-162
614.838,5.60413e-167
617.432,2.06903e-171
620.026,6.67684e-176
622.62,1.8833e-180
625.214,4.64315e-185
627.809,1.00058e-189
630.403,1.88466e-194
632.997,3.10285e-199
635.591,4.46511e-204
638.186,5.61628e-209
640.78,6.17461e-214
643.374,5.93356e-219
645.968,4.98386e-224
648.562,3.65898e-229
651.157,2.34801e-234
653.751,1.317e-239
656.345,6.45674e-245
658.939,2.76686e-250
661.533,1.03635e-255
664.128,3.39287e-261
666.722,9.70901e-267
669.316,2.42844e-272
671.91,5.30913e-278
674.504,1.01453e-283
677.099,1.69454e-289
679.693,2.4739e-295
682.287,3.15687e-301
684.881,3.52108e-307
687.475,3.43274e-313
690.07,2.92517e-319
692.664,0.0
695.258,0.0
697.852,0.0
700.447,0.0
703.041,0.0
705.635,0.0
708.229,0.0
710.823,0.0
713.418,0.0
716.012,0.0
718.606,0.0
721.2,0.0
723.794,0.0
726.389,0.0
728.983,0.0
731.577,0.0
734.171,0.0
736.765,0.0
739.36,0.0
741.954,0.0
744.548,0.0
747.142,0.0
749.737,0.0
752.331,0.0
754.925,0.0
757.519,0.0
760.113,0.0
762.708,0.0
762.86,0.0

File: log.PBE0446657-RAMAN.csv
E(cm-1),I
0.01,1.57372e-76
2.60421,1.37729e-73
5.19842,1.05357e-70
7.79263,7.04447e-68
10.3868,4.11697e-65
12.981,2.10306e-62
15.5753,9.39009e-60
18.1695,3.66465e-57
20.7637,1.25009e-54
23.3579,3.72729e-52
25.9521,9.71382e-50
28.5463,2.21275e-47
31.1405,4.40573e-45
33.7347,7.66742e-43
36.3289,1.16634e-40
38.9231,1.55076e-38
41.5174,1.80223e-36
44.1116,1.83071e-34
46.7058,1.62545e-32
49.3,1.26146e-30
51.8942,8.55688e-29
54.4884,5.07345e-27
57.0826,2.62928e-25
59.6768,1.191e-23
62.271,4.71558e-22
64.8652,1.63193e-20
67.4594,4.93643e-19
70.0537,1.30518e-17
72.6479,3.01627e-16
75.2421,6.09277e-15
77.8363,1.07573e-13
80.4305,1.66012e-12
83.0247,2.23933e-11
85.6189,2.64023e-10
88.2131,2.72088e-09
90.8073,2.45089e-08
93.4015,1.92966e-07
95.9957,1.32795e-06
98.59,7.98785e-06
101.184,4.19973e-05
103.778,0.000193
106.373,0.000775243
108.967,0.00272185
111.561,0.00835283
114.155,0.0224052
116.749,0.05253
119.344,0.107649
121.938,0.192824
124.532,0.301893
127.126,0.413134
129.72,0.494167
132.315,0.516655
134.909,0.472142
137.503,0.377128
140.097,0.2633
142.692,0.160678
145.286,0.085705
147.88,0.0399578
150.474,0.0162833
153.068,0.00580007
155.663,0.00180624
158.257,0.000493541
160.851,0.000124865
163.445,5.02244e-05
166.039,7.7994e-05
168.634,0.000183232
171.228,0.000395889
173.822,0.000750153
176.416,0.00124269
179.01,0.00179941
181.605,0.0022774
184.199,0.00251938
186.793,0.00243609
189.387,0.00205891
191.981,0.00152099
194.576,0.000982106
197.17,0.000554289
199.764,0.000273438
202.358,0.000117903
204.953,4.44363e-05
207.547,1.46384e-05
210.141,4.21497e-06
212.735,1.06082e-06
215.329,2.33362e-07
217.924,4.4871e-08
220.518,7.54128e-09
223.112,1.10782e-09
225.706,1.42245e-10
228.3,1.59644e-11
230.895,1.56607e-12
233.489,1.3428e-13
236.083,1.00638e-14
238.677,6.59253e-16
241.271,3.77475e-17
243.866,1.88916e-18
246.46,8.2641e-20
249.054,3.15985e-21
251.648,1.05604e-22
254.243,3.0849e-24
256.837,7.87673e-26
259.431,1.7579e-27
262.025,3.42917e-29
264.619,5.84692e-31
267.214,8.71385e-33
269.808,1.13511e-34
272.402,1.29244e-36
274.996,1.28625e-38
277.59,1.11889e-40
280.185,8.50736e-43
282.779,5.65387e-45
285.373,3.28429e-47
287.967,1.66756e-49
290.561,7.40058e-52
293.156,2.87075e-54
295.75,9.74021e-57
298.344,2.62614e-57
300.938,8.79855e-55
303.532,2.60523e-52
306.127,6.74257e-50
308.721,1.52528e-47
311.315,3.01591e-45
313.909,5.21233e-43
316.504,7.8739e-41
319.098,1.03966e-38
321.692,1.19989e-36
324.286,1.21041e-34
326.88,1.06726e-32
329.475,8.22527e-31
332.069,5.54085e-29
334.663,3.26247e-27
337.257,1.67904e-25
339.851,7.55304e-24
342.446,2.96979e-22
345.04,1.02065e-20
347.634,3.06598e-19
350.228,8.05021e-18
352.822,1.84753e-16
355.417,3.70611e-15
358.011,6.49816e-14
360.605,9.95881e-13
363.199,1.33404e-11
365.794,1.56198e-10
368.388,1.59855e-09
370.982,1.42995e-08
373.576,1.11805e-07
376.17,7.64093e-07
378.765,4.56431e-06
381.359,2.38314e-05
383.953,0.00010876
386.547,0.000433842
389.141,0.00151265
391.736,0.00460991
394.33,0.0122797
396.924,0.0285911
399.518,0.0581859
402.112,0.103502
404.707,0.160925
407.301,0.218698
409.895,0.259783
412.489,0.269724
415.084,0.244779
417.678,0.194166
420.272,0.134622
422.866,0.081584
425.46,0.0432153
428.055,0.0200085
430.649,0.00809724
433.243,0.0028642
435.837,0.000885555
438.431,0.000239316
441.026,5.65291e-05
443.62,1.16713e-05
446.214,2.10624e-06
448.808,3.32232e-07
451.402,4.58059e-08
453.997,5.52008e-09
456.591,5.81452e-10
459.185,5.35336e-11
461.779,4.30809e-12
464.373,3.03033e-13
466.968,1.86786e-14
469.562,1.95807e-15
472.156,1.6837e-14
474.75,2.57576e-13
477.345,3.45503e-12
479.939,4.05283e-11
482.533,4.15824e-10
485.127,3.73274e-09
487.721,2.9328e-08
490.316,2.01795e-07
492.91,1.21686e-06
495.504,6.43753e-06
498.098,2.99191e-05
500.692,0.000122385
503.287,0.000441663
505.881,0.00141032
508.475,0.00399877
511.069,0.0101065
513.663,0.022857
516.258,0.0464134
518.852,0.0848102
521.446,0.13955
524.04,0.206554
526.635,0.274321
529.229,0.325746
531.823,0.344503
534.417,0.323256
537.011,0.268205
539.606,0.196212
542.2,0.126283
544.794,0.0713789
547.388,0.0353862
549.982,0.0153717
552.577,0.00584687
555.171,0.00194635
557.765,0.000566834
560.359,0.000144382
562.953,3.21599e-05
565.548,6.26326e-06
568.142,1.06642e-06
570.736,1.58736e-07
573.33,2.06545e-08
575.924,2.34927e-09
578.519,2.33579e-10
581.113,2.04114e-11
583.707,3.32973e-12
586.301,2.49344e-11
588.896,3.0149e-10
591.49,3.19934e-09
594.084,2.96758e-08
596.678,2.40596e-07
599.272,1.70498e-06
601.867,1.05607e-05
604.461,5.7176e-05
607.055,0.000270569
609.649,0.00111915
612.243,0.00404615
614.838,0.0127862
617.432,0.0353169
620.026,0.085265
622.62,0.17993
625.214,0.331879
627.809,0.535059
630.403,0.753995
632.997,0.928708
635.591,0.99985
638.186,0.940882
640.78,0.773891
643.374,0.556377
645.968,0.349626
648.562,0.192036
651.157,0.0921946
653.751,0.0386878
656.345,0.0141901
658.939,0.00454929
661.533,0.00127481
664.128,0.000312243
666.722,6.68472e-05
669.316,1.25089e-05
671.91,2.04597e-06
674.504,2.92499e-07
677.099,3.65506e-08
679.693,3.99217e-09
682.287,3.81126e-10
684.881,3.18033e-11
687.475,2.31964e-12
690.07,1.47881e-13
692.664,8.24045e-15
695.258,4.01359e-16
697.852,1.70868e-17
700.447,6.35816e-19
703.041,2.06799e-20
705.635,5.87907e-22
708.229,1.46088e-23
710.823,3.17296e-25
713.418,6.02364e-27
716.012,9.99535e-29
718.606,1.44971e-30
721.2,1.83785e-32
723.794,2.0365e-34
726.389,1.97243e-36
728.983,1.6698e-38
731.577,1.23558e-40
734.171,7.99141e-43
736.765,4.51772e-45
739.36,2.23234e-47
741.954,9.64154e-50
744.548,3.63979e-52
747.142,1.20102e-54
749.737,3.46395e-57
752.331,8.73244e-60
754.925,1.92418e-62
757.519,3.70594e-65
760.113,6.23873e-68
762.708,9.17993e-71
762.86,6.22896e-71

File: MgO.log-IR.csv
E(cm-1),I
0.01,0.0
1.67734,0.0
3.34469,0.0
5.01203,0.0
6.67937,0.0
8.34672,0.0
10.0141,0.0
11.6814,0.0
13.3487,0.0
15.0161,0.0
16.6834,0.0
18.3508,0.0
20.0181,0.0
21.6855,0.0
23.3528,0.0
25.0202,0.0
26.6875,0.0
28.3548,0.0
30.0222,0.0
31.6895,0.0
33.3569,0.0
35.0242,0.0
36.6916,0.0
38.3589,0.0
40.0262,0.0
41.6936,0.0
43.3609,0.0
45.0283,0.0
46.6956,0.0
48.363,0.0
50.0303,0.0
51.6976,0.0
53.365,0.0
55.0323,0.0
56.6997,0.0
58.367,0.0
60.0344,0.0
61.7017,0.0
63.369,0.0
65.0364,0.0
66.7037,0.0
68.3711,0.0
70.0384,0.0
71.7058,0.0
73.3731,0.0
75.0405,0.0
76.7078,0.0
78.3751,0.0
80.0425,0.0
81.7098,0.0
83.3772,0.0
85.0445,0.0
86.7119,0.0
88.3792,0.0
90.0465,0.0
91.7139,0.0
93.3812,0.0
95.0486,0.0
96.7159,0.0
98.3833,0.0
100.051,0.0
101.718,0.0
103.385,0.0
105.053,0.0
106.72,0.0
108.387,0.0
110.055,0.0
111.722,0.0
113.389,0.0
115.057,0.0
116.724,0.0
118.391,0.0
120.059,0.0
121.726,0.0
123.393,0.0
125.061,0.0
126.728,0.0
128.395,0.0
130.063,0.0
131.73,0.0
133.397,0.0
135.065,0.0
136.732,1.067e-321
138.4,9.00101e-318
140.067,7.16477e-314
141.734,5.39469e-310
143.402,3.84223e-306
145.069,2.58853e-302
146.736,1.64959e-298
148.404,9.9438e-295
150.071,5.66997e-291
151.738,3.05818e-287
153.406,1.56026e-283
155.073,7.52982e-280
156.74,3.43736e-276
158.408,1.48429e-272
160.075,6.06268e-269
161.742,2.34242e-265
163.41,8.56084e-262
165.077,2.95952e-258
166.744,9.67786e-255
168.412,2.99358e-251
170.079,8.759e-248
171.746,2.42422e-244
173.414,6.3466e-241
175.081,1.57168e-237
176.748,3.68162e-234
178.416,8.1577e-231
180.083,1.70982e-227
181.75,3.38988e-224
183.418,6.35728e-221
185.085,1.12775e-217
186.752,1.89236e-214
188.42,3.00366e-211
190.087,4.50972e-208
191.754,6.40475e-205
193.422,8.60413e-202
195.089,1.09336e-198
196.757,1.31424e-195
198.424,1.49431e-192
200.091,1.60715e-189
201.759,1.63503e-186
203.426,1.57343e-183
205.093,1.43227e-180
206.761,1.23325e-177
208.428,1.00446e-174
210.095,7.73869e-172
211.763,5.63968e-169
213.43,3.88772e-166
215.097,2.53506e-163
216.765,1.56363e-160
218.432,9.1229e-158
220.099,5.03483e-155
221.767,2.62839e-152
223.434,1.29792e-149
225.101,6.06259e-147
226.769,2.67868e-144
228.436,1.11954e-141
230.103,4.42596e-139
231.771,1.65512e-136
233.438,5.85471e-134
235.105,1.95899e-131
236.773,6.20032e-129
238.44,1.8563e-126
240.107,5.25697e-124
241.775,1.40824e-121
243.442,3.56836e-119
245.109,8.55292e-117
246.777,1.93916e-114
248.444,4.15877e-112
250.112,8.43663e-110
251.779,1.61893e-107
253.446,2.93858e-105
255.114,5.04546e-103
256.781,8.1944e-101
258.448,1.25889e-98
260.116,1.8294e-96
261.783,2.51468e-94
263.45,3.26973e-92
265.118,4.02154e-90
266.785,4.67871e-88
268.452,5.14889e-86
270.12,5.35986e-84
271.787,5.27771e-82
273.454,4.91577e-80
275.122,4.33102e-78
276.789,3.60945e-76
278.456,2.84542e-74
280.124,2.1218e-72
281.791,1.49663e-70
283.458,9.98566e-69
285.126,6.30221e-67
286.793,3.76238e-65
288.46,2.12463e-63
290.128,1.1349e-61
291.795,5.73439e-60
293.462,2.74074e-58
295.13,1.23909e-56
296.797,5.29893e-55
298.464,2.14352e-53
300.132,8.20201e-52
301.799,2.9687e-50
303.466,1.0164e-48
305.134,3.29167e-47
306.801,1.00837e-45
308.469,2.92198e-44
310.136,8.00917e-43
311.803,2.07659e-41
313.471,5.09292e-40
315.138,1.1815e-38
316.805,2.59273e-37
318.473,5.38186e-36
320.14,1.05672e-34
321.807,1.96264e-33
323.475,3.44805e-32
325.142,5.73008e-31
326.809,9.00741e-30
328.477,1.33934e-28
330.144,1.88381e-27
331.811,2.50632e-26
333.479,3.15418e-25
335.146,3.75484e-24
336.813,4.22813e-23
338.481,4.50358e-22
340.148,4.53755e-21
341.815,4.32451e-20
343.483,3.89857e-19
345.15,3.32451e-18
346.817,2.68165e-17
348.485,2.04611e-16
350.152,1.47676e-15
351.819,1.00819e-14
353.487,6.51073e-14
355.154,3.97712e-13
356.821,2.29806e-12
358.489,1.25605e-11
360.156,6.49388e-11
361.824,3.17582e-10
363.491,1.46913e-09
365.158,6.4286e-09
366.826,2.66088e-08
368.493,1.04181e-07
370.16,3.85837e-07
371.828,1.35168e-06
373.495,4.47914e-06
375.162,1.40401e-05
376.83,4.1629e-05
378.497,0.000116755
380.164,0.000309749
381.832,0.000777313
383.499,0.00184516
385.166,0.00414312
386.834,0.00879979
388.501,0.0176795
390.168,0.0335986
391.836,0.0603983
393.503,0.102703
395.17,0.165193
396.838,0.251335
398.505,0.361717
400.172,0.492422
401.84,0.634102
403.507,0.772384
405.174,0.889939
406.842,0.96993
408.509,0.999939
410.176,0.975123
411.844,0.899495
413.511,0.784857
415.179,0.647791
416.846,0.505747
418.513,0.373494
420.181,0.260908
421.848,0.172403
423.515,0.107759
425.183,0.0637112
426.85,0.0356312
428.517,0.0188495
430.185,0.00943236
431.852,0.00446472
433.519,0.00199904
435.187,0.000846645
436.854,0.000339183
438.521,0.000128535
440.189,4.60743e-05
441.856,1.56225e-05
443.523,5.01066e-06
445.191,1.52017e-06
446.858,4.36258e-07
448.525,1.18426e-07
450.193,3.04091e-08
451.86,7.38605e-09
453.527,1.69697e-09
455.195,3.68799e-10
456.862,7.58155e-11
458.529,1.47428e-11
460.197,2.71177e-12
461.864,4.71824e-13
463.531,7.76532e-14
465.199,1.20891e-14
466.866,1.78024e-15
468.533,2.4798e-16
470.201,3.26744e-17
471.868,4.07242e-18
473.536,4.8012e-19
475.203,5.35427e-20
476.87,5.64811e-21
478.538,5.63585e-22
480.205,5.31948e-23
481.872,4.74931e-24
483.54,4.01094e-25
485.207,3.20416e-26
486.874,2.42122e-27
488.542,1.73065e-28
490.209,1.17013e-29
490.307,9.96922e-30

File: TiO2_rutile.log-IR.csv
E(cm-1),I
0.01,4.11574e-42
3.35858,2.48764e-39
6.70717,1.20153e-36
10.0557,4.6375e-34
13.4043,1.43034e-31
16.7529,3.52533e-29
20.1015,6.94329e-27
23.4501,1.09279e-24
26.7987,1.3744e-22
30.1472,1.38132e-20
33.4958,1.10938e-18
36.8444,7.1199e-17
40.193,3.65152e-15
43.5416,1.49652e-13
46.8902,4.9012e-12
50.2387,1.28274e-10
53.5873,2.68288e-09
56.9359,4.48442e-08
60.2845,5.99079e-07
63.6331,6.39723e-06
66.9817,5.46171e-05
70.3302,0.000372972
73.6788,0.00203875
77.0274,0.00893261
80.376,0.0314456
83.7246,0.0893146
87.0732,0.206118
90.4217,0.390834
93.7703,0.618743
97.1189,0.833839
100.467,0.973132
103.816,0.990537
107.165,0.873276
110.513,0.65551
113.862,0.410901
117.21,0.211661
120.559,0.0885972
123.908,0.029923
127.256,0.00812031
130.605,0.00176634
133.953,0.000307555
137.302,4.28335e-05
140.65,4.76952e-06
143.999,4.24519e-07
147.348,3.0199e-08
150.696,1.71684e-09
154.045,7.80001e-11
157.393,2.83189e-12
160.742,8.21615e-14
164.091,1.90489e-15
167.439,3.52921e-17
170.788,5.22506e-19
174.136,6.18174e-21
177.485,5.84435e-23
180.833,4.41536e-25
184.182,2.66564e-27
187.531,1.286e-29
190.879,4.95779e-32
194.228,1.52735e-34
197.576,3.76006e-37
200.925,7.39699e-40
204.274,1.16284e-42
207.622,1.4608e-45
210.971,1.46645e-48
214.319,1.17638e-51
217.668,7.5411e-55
221.016,3.86301e-58
224.365,1.58133e-61
227.714,5.17277e-65
231.062,1.35216e-68
234.411,2.8245e-72
237.759,4.71473e-76
241.108,6.28896e-80
244.457,1.30214e-82
247.805,9.94192e-79
251.154,6.39502e-75
254.502,3.28714e-71
257.851,1.35021e-67
261.199,4.43187e-64
264.548,1.16246e-60
267.897,2.43655e-57
271.245,4.0811e-54
274.594,5.46241e-51
277.942,5.84247e-48
281.291,4.99359e-45
284.64,3.41064e-42
287.988,1.8615e-39
291.337,8.11885e-37
294.685,2.82965e-34
298.034,7.88087e-32
301.382,1.75397e-29
304.731,3.11942e-27
308.08,4.43335e-25
311.428,5.03494e-23
314.777,4.56943e-21
318.125,3.31386e-19
321.474,1.92049e-17
324.823,8.89395e-16
328.171,3.29141e-14
331.52,9.73364e-13
334.868,2.30024e-11
338.217,4.34386e-10
341.565,6.55517e-09
344.914,7.90491e-08
348.263,7.61755e-07
351.611,5.86595e-06
354.96,3.60966e-05
358.308,0.000177501
361.657,0.00069749
365.006,0.00219019
368.354,0.00549579
371.703,0.01102
375.051,0.017658
378.4,0.0226103
381.748,0.0231353
385.097,0.0189168
388.446,0.0123602
391.794,0.00645372
395.143,0.00269277
398.491,0.000897828
401.84,0.000239217
405.189,5.09326e-05
408.537,8.66573e-06
411.886,1.1782e-06
415.234,1.28008e-07
418.583,1.11138e-08
421.931,7.71067e-10
425.28,4.2749e-11
428.629,1.89394e-12
431.977,6.70517e-14
435.326,1.89697e-15
438.674,4.28858e-17
442.023,7.74781e-19
445.372,1.21944e-20
448.72,8.64361e-20
452.069,5.89722e-18
455.417,3.21998e-16
458.766,1.40496e-14
462.114,4.89868e-13
465.463,1.3649e-11
468.812,3.03897e-10
472.16,5.40701e-09
475.509,7.68764e-08
478.857,8.73442e-07
482.206,7.93012e-06
485.555,5.75349e-05
488.903,0.00033357
492.252,0.00154543
495.6,0.00572157
498.949,0.0169272
502.297,0.0400187
505.646,0.0756039
508.995,0.114138
512.343,0.137696
515.692,0.132745
519.04,0.102263
522.389,0.0629546
525.738,0.0309699
529.086,0.0121746
532.435,0.00382453
535.783,0.000960074
539.132,0.000192591
542.48,3.08727e-05
545.829,3.95472e-06
549.178,4.04821e-07
552.526,3.31143e-08
555.875,2.16458e-09
559.223,1.13067e-10
562.572,4.71957e-12
565.921,1.57425e-13
569.269,4.19616e-15
572.618,8.93788e-17
575.966,1.52133e-18
579.315,2.06926e-20
582.663,2.24912e-22
586.012,1.95351e-24
589.361,1.35589e-26
592.709,7.52031e-29
596.058,3.33314e-31
599.406,1.18053e-33
602.755,3.34122e-36
606.104,7.5568e-39
609.452,1.36577e-41
612.801,1.97251e-44
616.149,2.2765e-47
619.498,2.09952e-50
622.846,1.54732e-53
626.195,9.1126e-57
629.544,4.28855e-60
632.892,1.61281e-63
636.241,4.84689e-67
639.589,1.16398e-70
642.938,2.23375e-74
646.287,3.42554e-78
649.635,4.19785e-82
652.984,4.11085e-86
656.332,3.21692e-90
659.681,2.01166e-94
663.029,1.00525e-98
666.378,4.01418e-103
669.727,1.28093e-107
673.075,3.26633e-112
676.424,6.65578e-117
679.772,1.08379e-121
683.121,1.41024e-126
686.47,1.46638e-131
689.818,1.21845e-136
693.167,8.09041e-142
696.515,4.29279e-147
699.864,1.82018e-152
703.212,6.16729e-158
706.561,1.66986e-163
709.91,3.613e-169
713.258,6.24688e-175
716.607,8.63104e-181
719.955,9.52945e-187
723.304,8.40771e-193
726.652,5.92779e-199
730.001,3.33974e-205
733.35,1.50362e-211
736.698,5.40963e-218
740.047,1.55526e-224
743.395,3.57308e-231
746.744,6.55977e-238
750.093,9.62363e-245
753.441,1.12822e-251
756.79,1.05695e-258
760.138,7.91261e-266
763.487,4.73359e-273
766.835,2.2629e-280
770.184,8.64464e-288
773.533,2.63896e-295
776.881,6.43759e-303
780.23,1.25493e-310
783.578,1.95488e-318
786.927,0.0
790.276,0.0
793.624,0.0
796.973,0.0
800.321,0.0
803.67,0.0
807.018,0.0
810.367,0.0
813.716,0.0
817.064,0.0
820.413,0.0
823.761,0.0
827.11,0.0
830.459,0.0
833.807,0.0
837.156,0.0
840.504,0.0
843.853,0.0
847.201,0.0
850.55,0.0
853.899,0.0
857.247,0.0
860.596,0.0
863.944,0.0
867.293,0.0
870.642,0.0
873.99,0.0
877.339,0.0
880.687,0.0
884.036,0.0
887.384,0.0
890.733,0.0
894.082,0.0
897.43,0.0
900.779,0.0
904.127,0.0
907.476,0.0
910.825,0.0
914.173,0.0
917.522,0.0
920.87,0.0
924.219,0.0
927.567,0.0
930.916,0.0
934.265,0.0
937.613,0.0
940.962,0.0
944.31,0.0
947.659,0.0
951.008,0.0
954.356,0.0
957.705,0.0
961.053,0.0
964.402,0.0
967.75,0.0
971.099,0.0
974.448,0.0
977.796,0.0
981.145,0.0
984.493,0.0
984.69,0.0