Folder: CRYSTAL-scripts/CRYSTAL-IR-RAMAN (part 3)

File: TiO2_rutile.log-RAMAN.csv
E(cm-1),I
0.01,6.23569e-58
3.35858,9.60774e-55
6.70717,1.18294e-51
10.0557,1.16388e-48
13.4043,9.15083e-46
16.7529,5.74932e-43
20.1015,2.88655e-40
23.4501,1.1581e-37
26.7987,3.71293e-35
30.1472,9.51247e-33
33.4958,1.94749e-30
36.8444,3.18612e-28
40.193,4.16537e-26
43.5416,4.35162e-24
46.8902,3.63289e-22
50.2387,2.42359e-20
53.5873,1.29203e-18
56.9359,5.50414e-17
60.2845,1.87375e-15
63.6331,5.09728e-14
66.9817,1.10808e-12
70.3302,1.9249e-11
73.6788,2.67209e-10
77.0274,2.96414e-09
80.376,2.62755e-08
83.7246,1.86126e-07
87.0732,1.05359e-06
90.4217,4.76583e-06
93.7703,1.72271e-05
97.1189,4.9761e-05
100.467,0.000114861
103.816,0.000211865
107.165,0.000312286
110.513,0.000367833
113.862,0.000346221
117.21,0.000260412
120.559,0.000156522
123.908,7.51784e-05
127.256,2.88547e-05
130.605,8.85003e-06
133.953,2.16909e-06
137.302,4.24831e-07
140.65,6.64905e-08
143.999,8.31588e-09
147.348,8.31117e-10
150.696,6.63775e-11
154.045,4.23628e-12
157.393,2.16049e-13
160.742,8.80495e-15
164.091,2.86751e-16
167.439,7.46259e-18
170.788,1.55195e-19
174.136,2.57912e-21
177.485,3.42509e-23
180.833,3.63476e-25
184.182,3.08237e-27
187.531,2.08881e-29
190.879,1.13114e-31
194.228,4.89488e-34
197.576,1.69267e-36
200.925,4.67742e-39
204.274,1.03287e-41
207.622,1.82259e-44
210.971,2.57004e-47
214.319,2.89597e-50
217.668,2.60768e-53
221.016,1.87637e-56
224.365,1.07892e-59
227.714,4.95751e-63
231.062,1.8203e-66
234.411,5.34107e-70
237.759,1.25233e-73
241.108,2.34646e-77
244.457,3.51328e-81
247.805,4.20357e-85
251.154,4.0191e-89
254.502,3.07075e-93
257.851,1.87484e-97
261.199,9.14723e-102
264.548,3.56632e-106
267.897,1.11111e-110
271.245,2.76628e-115
274.594,5.50353e-120
277.942,8.74968e-125
281.291,1.11161e-129
284.64,1.3189e-129
287.988,1.1816e-124
291.337,8.45931e-120
294.685,4.83955e-115
298.034,2.21249e-110
301.382,8.08278e-106
304.731,2.35964e-101
308.08,5.50474e-97
311.428,1.0262e-92
314.777,1.52874e-88
318.125,1.81986e-84
321.474,1.73121e-80
324.823,1.31603e-76
328.171,7.9944e-73
331.52,3.88071e-69
334.868,1.50537e-65
338.217,4.66636e-62
341.565,1.1559e-58
344.914,2.28805e-55
348.263,3.61923e-52
351.611,4.57481e-49
354.96,4.62098e-46
358.308,3.72992e-43
361.657,2.40587e-40
365.006,1.24007e-37
368.354,5.10774e-35
371.703,1.68119e-32
375.051,4.42188e-30
378.4,9.29402e-28
381.748,1.56101e-25
385.097,2.09513e-23
388.446,2.24711e-21
391.794,1.92593e-19
395.143,1.31905e-17
398.491,7.2192e-16
401.84,3.15734e-14
405.189,1.10346e-12
408.537,3.08177e-11
411.886,6.87776e-10
415.234,1.22659e-08
418.583,1.74806e-07
421.931,1.99076e-06
425.28,1.8117e-05
428.629,0.000131752
431.977,0.00076566
435.326,0.00355564
438.674,0.0131949
442.023,0.039129
445.372,0.0927248
448.72,0.17559
452.069,0.265709
455.417,0.321306
458.766,0.310482
462.114,0.239751
465.463,0.147941
468.812,0.0729492
472.16,0.0287448
475.509,0.00905111
478.857,0.00227746
482.206,0.000457934
485.555,7.35803e-05
488.903,9.44767e-06
492.252,9.69378e-07
495.6,7.94816e-08
498.949,5.20769e-09
502.297,2.72664e-10
505.646,1.14082e-11
508.995,3.81426e-13
512.343,1.01908e-14
515.692,2.17577e-16
519.04,3.71212e-18
522.389,5.06099e-20
525.738,5.53794e-22
529.086,3.05508e-22
532.435,2.99878e-20
535.783,2.38973e-18
539.132,1.5218e-16
542.48,7.74415e-15
545.829,3.14915e-13
549.178,1.02334e-11
552.526,2.65735e-10
555.875,5.51421e-09
559.223,9.14374e-08
562.572,1.21163e-06
565.921,1.28298e-05
569.269,0.000108561
572.618,0.000734066
575.966,0.00396644
579.315,0.0171266
582.663,0.0590944
586.012,0.16294
589.361,0.359015
592.709,0.632126
596.058,0.889404
599.406,1.0
602.755,0.898475
606.104,0.645085
609.452,0.370112
612.801,0.169689
616.149,0.0621698
619.498,0.0182017
622.846,0.00425841
626.195,0.000796138
629.544,0.000118942
632.892,1.41999e-05
636.241,1.3547e-06
639.589,1.03277e-07
642.938,6.29173e-09
646.287,3.06296e-10
649.635,1.19157e-11
652.984,3.70425e-13
656.332,9.20209e-15
659.681,1.82675e-16
663.029,2.89785e-18
666.378,3.67347e-20
669.727,3.72121e-22
673.075,3.01228e-24
676.424,1.94856e-26
679.772,1.00724e-28
683.121,4.16066e-31
686.47,1.37339e-33
689.818,3.62269e-36
693.167,7.63614e-39
696.515,1.28624e-41
699.864,1.7313e-44
703.212,1.86222e-47
706.561,1.60064e-50
709.91,1.09942e-53
713.258,1.02079e-55
716.607,1.13537e-52
719.955,1.07253e-49
723.304,8.09631e-47
726.652,4.88392e-44
730.001,2.35427e-41
733.35,9.06875e-39
736.698,2.79154e-36
740.047,6.86668e-34
743.395,1.34975e-31
746.744,2.12015e-29
750.093,2.66123e-27
753.441,2.66935e-25
756.79,2.1396e-23
760.138,1.37045e-21
763.487,7.01459e-20
766.835,2.86909e-18
770.184,9.3776e-17
773.533,2.44931e-15
776.881,5.11213e-14
780.23,8.52638e-13
783.578,1.1364e-11
786.927,1.21033e-10
790.276,1.03011e-09
793.624,7.00593e-09
796.973,3.80762e-08
800.321,1.65366e-07
803.67,5.73911e-07
807.018,1.59165e-06
810.367,3.52741e-06
813.716,6.24696e-06
817.064,8.84071e-06
820.413,9.99793e-06
823.761,9.03522e-06
827.11,6.52487e-06
830.459,3.76539e-06
833.807,1.73642e-06
837.156,6.39886e-07
840.504,1.88433e-07
843.853,4.43419e-08
847.201,8.33831e-09
850.55,1.25299e-09
853.899,1.5046e-10
857.247,1.44378e-11
860.596,1.10709e-12
863.944,6.78379e-14
867.293,3.32175e-15
870.642,1.29977e-16
873.99,4.06415e-18
877.339,1.0155e-19
880.687,2.02765e-21
884.036,3.23528e-23
887.384,4.12512e-25
890.733,4.20306e-27
894.082,3.42216e-29
897.43,2.22659e-31
900.779,1.15767e-33
904.127,4.80988e-36
907.476,1.59694e-38
910.825,4.2369e-41
914.173,8.98282e-44
917.522,1.52189e-46
920.87,2.06043e-49
924.219,2.22914e-52
927.567,1.92718e-55
930.916,1.33141e-58
934.265,7.35034e-62
937.613,3.24271e-65
940.962,1.14317e-68
944.31,3.2205e-72
947.659,7.25e-76
951.008,1.30424e-79
954.356,1.87492e-83
957.705,2.15384e-87
961.053,1.9772e-91
964.402,1.45041e-95
967.75,8.50229e-100
971.099,3.98278e-104
974.448,1.49088e-108
977.796,4.45967e-113
981.145,1.06603e-117
984.493,2.03629e-122
984.69,1.06714e-122